#lambda/nm	DC	C1
208.295	514.6	518
208.67	476.2	470.4
209.045	430	439.2
209.419	440	435.8
209.794	619.4	621.6
210.169	598.8	606.4
210.544	705.6	714.4
210.919	608.2	607.6
211.295	592.8	600.4
211.67	606.4	606
212.045	598.2	598
212.421	604.2	604
212.796	636.8	638.6
213.172	592.8	601.8
213.547	587.4	607.6
213.923	600	603.2
214.299	600.2	596.6
214.675	607.6	612.8
215.051	605.4	611.8
215.427	614.2	614.4
215.803	617.6	615.8
216.179	615.2	611.8
216.555	599.8	602
216.932	608.2	615.2
217.308	600.2	606.2
217.684	606.8	610.4
218.061	615.8	610.2
218.438	619.6	608.4
218.814	597.2	600.8
219.191	621	615.4
219.568	596.2	602
219.945	603.8	598
220.322	611.2	610
220.699	602	600
221.076	616.6	603
221.453	606.2	611.8
221.83	595.8	605.4
222.208	595.4	601.6
222.585	594.6	598.6
222.962	608.6	613.8
223.34	610	615.4
223.717	603.8	605.8
224.095	604.2	601.2
224.473	605.6	620
224.851	597	593.8
225.229	588.2	594.8
225.607	622.6	611
225.985	593.6	589.4
226.363	600	602.6
226.741	607.2	607.4
227.119	599.8	608.8
227.497	624	619.2
227.876	596.2	592.2
228.254	624.4	612.6
228.633	610.8	610.2
229.011	604.2	604.4
229.39	612.4	605.4
229.769	607.6	605.6
230.148	616	616
230.527	625.4	620.6
230.905	607.2	607.8
231.284	605	607.6
231.664	601.6	595.2
232.043	613.6	616.6
232.422	611.6	609.4
232.801	605	604.4
233.181	610.8	609.2
233.56	606.4	605.6
233.94	614.2	614.2
234.319	593.4	595.6
234.699	607	605.8
235.079	647.4	655
235.458	636	637.8
235.838	630.6	617.6
236.218	598.2	599.4
236.598	593.2	603.4
236.978	599.8	603.8
237.358	602	597.6
237.738	595.6	601.2
238.119	607.6	619.6
238.499	594.6	598.2
238.88	603	602.8
239.26	615.4	623.2
239.641	599	596.6
240.021	599.6	608.8
240.402	610.6	596.4
240.783	606.8	602.2
241.163	605.4	608.6
241.544	603.8	607
241.925	607.6	608.8
242.306	612.8	619.4
242.687	608	595.2
243.069	616.8	606
243.45	618	615
243.831	600	598
244.212	606.2	605.6
244.594	639.6	640.8
244.975	618.2	615.6
245.357	610	609.6
245.739	596.6	594.4
246.12	600.6	598.2
246.502	619.6	622.2
246.884	604	601.4
247.266	609	605.6
247.648	609.6	606.8
248.03	624.8	626.8
248.412	612.4	605
248.794	621	601.2
249.176	601.2	605.6
249.559	617.2	606.8
249.941	600	594.6
250.323	606	600.4
250.706	605.4	595.4
251.089	614.6	600.6
251.471	607.8	607
251.854	603.8	611.8
252.237	599.8	606
252.62	618.2	617.2
253.002	607.4	607
253.385	608.4	604.4
253.769	630.6	622.8
254.152	603.8	603.8
254.535	614	608.6
254.918	597.4	593.6
255.301	609.6	604.6
255.685	609.8	603.2
256.068	600.8	603.2
256.452	636	633.8
256.835	606	608
257.219	614.2	610.8
257.603	621.6	618.4
257.986	592.8	601.2
258.37	607.6	607.8
258.754	595.2	590.4
259.138	614.6	613.2
259.522	615	614
259.906	600.8	606.4
260.29	616.6	613.8
260.675	608.6	599
261.059	612.6	616
261.443	603.2	596.2
261.828	615.8	619.2
262.212	620.4	606.8
262.597	598.8	605.8
262.981	598.2	603.4
263.366	616.4	606
263.751	604.8	595
264.136	608.2	599.6
264.521	602	606
264.906	595.2	597.4
265.291	621.2	617
265.676	598.8	608.4
266.061	611	615.4
266.446	629.8	630.2
266.831	610.2	607.6
267.217	625.6	625.8
267.602	601.6	602
267.987	606.8	603.4
268.373	613	599
268.759	617.2	605.2
269.144	608.8	608
269.53	605.2	603.4
269.916	598.2	600.4
270.302	601.6	598.6
270.688	601.4	604
271.074	606.2	608.6
271.46	617.2	615
271.846	634.6	634.2
272.232	605.4	608.6
272.618	601.8	593.2
273.004	606	599
273.391	611.4	608.4
273.777	614.8	616.8
274.164	604.8	605.8
274.55	618.4	612
274.937	618.6	602
275.324	609.2	604.2
275.71	610	615.4
276.097	611.6	626.6
276.484	608.4	606.6
276.871	623	610
277.258	604.6	614.2
277.645	600.2	593.2
278.032	607.2	600
278.419	601.4	603.8
278.807	611.2	609.2
279.194	597.2	599
279.581	595.8	599.6
279.969	611.2	614.6
280.356	610.8	610.6
280.744	605	604.8
281.131	627.4	633.8
281.519	612.4	625.2
281.907	596.2	595
282.295	605.4	605.4
282.682	615.8	620.8
283.07	610.2	607.6
283.458	621.8	618.6
283.846	614.8	618.2
284.235	612.8	622.4
284.623	624	616.8
285.011	597	601.8
285.399	606.4	597
285.788	608	603.4
286.176	601.2	601.2
286.565	615.8	620.2
286.953	604.4	608.8
287.342	597.2	596.2
287.731	602	599.4
288.119	600.2	600.4
288.508	606	609.4
288.897	602.6	608.2
289.286	592	590
289.675	601	609.2
290.064	612	620.2
290.453	601.6	610.8
290.821	607.2	609.8
291.21	614.2	620
291.599	593	600.4
291.989	600.2	615.4
292.378	621	616.4
292.768	624	625.2
293.157	608.4	611
293.547	615.4	608.8
293.936	610.2	606.8
294.326	605.8	604
294.716	613.6	609.2
295.106	598.2	605.6
295.496	614	617.4
295.886	615.4	616.6
296.276	605.2	609.8
296.666	612.8	599.2
297.056	602.2	600.8
297.446	599.2	598
297.836	609.6	614.6
298.227	609.6	599.2
298.617	609.4	603.8
299.008	616.4	618
299.398	601.8	607
299.789	598	602
300.179	610.6	612
300.57	629.2	619
300.961	605.6	601.4
301.352	599.8	601.8
301.742	615.8	600
302.133	608.4	604
302.524	605.4	606
302.915	616.8	614
303.307	602	593.6
303.698	618.4	616
304.089	610.8	613.6
304.48	604.8	608.8
304.872	613.4	609.2
305.263	605	603.2
305.655	594.4	595
306.046	611	609
306.438	617.4	618
306.829	611	598
307.221	620.8	633
307.613	607.4	605.8
308.005	618.8	619
308.397	617.6	612.8
308.789	631.4	628
309.181	637.4	632.2
309.573	625.4	624.4
309.965	625.2	616.8
310.357	607.2	606
310.749	607.6	603.8
311.142	607.2	605.2
311.534	607.2	606.6
311.926	606.4	618
312.319	604.8	609.8
312.711	607.2	595.2
313.104	628.6	608.2
313.497	601.6	614.2
313.889	645.4	647.8
314.282	614.6	626.4
314.675	630.4	631.6
315.068	604.2	609.4
315.461	619	618.4
315.854	635.4	634
316.247	618	618.2
316.64	602.2	610
317.033	609.6	615.2
317.405	610.2	622.2
317.798	604	604.4
318.192	607.6	608.8
318.585	592.8	605.8
318.979	613.8	622.6
319.372	594.8	606
319.766	600.8	607.6
320.16	612.8	609.4
320.553	619.6	622.2
320.947	625.2	634.4
321.341	599.2	605.8
321.735	610.8	611.2
322.129	599.8	602.6
322.523	633.8	632.4
322.917	594.4	605.6
323.311	617.4	616.2
323.705	609.2	610.8
324.099	610.4	615.6
324.494	623.2	627.4
324.888	621.2	620
325.282	601	607.4
325.677	610	617.6
326.071	616.4	612
326.466	618.2	620.4
326.861	611.6	617
327.255	623.4	624
327.65	616.2	623.8
328.045	620.6	627
328.44	599.8	621.4
328.835	605.2	612.6
329.23	599.4	611.4
329.625	627.2	644.2
330.02	598.4	611.4
330.415	624.8	629.2
330.81	606.4	606.2
331.206	614	613.4
331.601	605.4	607.6
331.996	619.2	608
332.37	613.6	623.2
332.766	601.4	596.6
333.161	635.4	634.4
333.557	612.8	609.2
333.953	611.4	604.6
334.348	620.4	610
334.744	608.8	607.8
335.14	606.2	599
335.536	599.4	602.2
335.932	624.6	623.2
336.328	618.8	613.4
336.724	615	621.6
337.12	605.4	613.8
337.516	617.6	601.8
337.913	617.2	606.8
338.309	619.8	622.4
338.705	605	616
339.102	612.8	625
339.498	597	603.8
339.895	620.4	623
340.291	607.2	605.4
340.688	613	615.2
341.085	604	599
341.481	608.8	604
341.878	601.2	611.8
342.275	630.6	628.6
342.672	607.8	603.2
343.069	608	607.4
343.466	599.4	600.4
343.842	622.4	622.8
344.239	608	606.2
344.636	609.2	613.2
345.033	595	598
345.431	602.8	599
345.828	606.8	610.8
346.225	603.2	601.6
346.623	614.6	615.4
347.02	613	608.8
347.418	613.4	612.2
347.816	626	619
348.213	594.6	597.4
348.611	604	609.2
349.009	608.2	598.6
349.407	628.8	619.6
349.805	595.2	594.8
350.203	590	592.6
350.601	614.8	627.4
350.999	602.6	607.4
351.397	603.6	593
351.795	600.2	609.4
352.193	615.2	619.4
352.57	612	610
352.969	618.6	619.2
353.367	603.4	604.2
353.766	596	596.6
354.164	601.6	606
354.563	613.4	618
354.961	607.2	596.4
355.36	603.2	604.8
355.759	607.2	602.8
356.158	597.8	600.6
356.557	591.8	597.4
356.956	600.6	593.4
357.355	594	599.2
357.754	608	604.8
358.153	611.8	607.8
358.552	638.4	630
358.951	604.6	605.4
359.35	613.6	613.4
359.75	597	599
360.149	595.4	596
360.527	598.4	592.2
360.926	603.4	599.4
361.326	601	603.8
361.726	601.6	602.8
362.125	596	596.2
362.525	618.4	616
362.925	603.2	603.8
363.325	607.6	598.4
363.724	603	599
364.124	598.2	592.2
364.524	593.2	601
364.924	600	599.2
365.324	617	614.4
365.725	585.8	587.4
366.125	601.4	607.4
366.525	609.8	605
366.904	597.8	593
367.304	589	582.8
367.705	623	613.8
368.105	616.8	615.2
368.506	599.2	597.8
368.906	607.2	598.6
369.307	607.2	596.6
369.708	607.6	600.2
370.108	585.8	592.8
370.509	607.2	612.8
370.91	602.8	591.4
371.311	602.2	597
371.712	593.4	602
372.113	591.4	598.6
372.514	585	587.6
372.894	591.6	595.8
373.295	595	592.2
373.696	613.8	608.8
374.097	609.6	605.2
374.499	631	623
374.9	603.4	603.4
375.301	590.2	582.2
375.703	600.8	598.8
376.105	592.4	584.4
376.506	608	601.2
376.908	602.2	604
377.309	598.6	602.6
377.711	596.8	602
378.113	598	590.8
378.493	599	590.8
378.895	599	598.2
379.297	615.8	608
379.699	593.6	583.2
380.102	605.8	602.6
380.504	599.2	597.2
380.906	593.8	590.4
381.308	627.8	629.8
381.71	594.4	602.8
382.113	610	608.2
382.515	593.2	603.8
382.918	600.8	605.6
383.299	604.2	604
383.701	602	616
384.104	601	599.4
384.507	572.8	577.6
384.909	591	592.4
385.312	589.4	588.4
385.715	590.8	594.2
386.118	596.4	601.6
386.521	589.4	590.6
386.924	597.6	602.2
387.327	598	595.4
387.709	588.8	589.6
388.112	587.4	587.8
388.515	594	599.8
388.918	596.6	595.6
389.322	594.4	604.2
389.725	593.8	590
390.129	623.8	615.6
390.532	596.4	599
390.936	591.6	590.4
391.339	590.8	593
391.743	599.4	601.8
392.125	594.6	586.6
392.529	603.6	599.6
392.933	607.8	606.8
393.337	593.8	598.2
393.74	595.8	595.8
394.144	594.6	604.8
394.548	584.4	589
394.953	599.8	602.8
395.357	600.2	605.4
395.761	591	598.2
396.144	595.4	598
396.548	592.6	594.2
396.952	594.4	600.4
397.357	597.8	593.6
397.761	601.2	593.4
398.166	594	593.2
398.57	590.4	590.8
398.975	588.8	586.8
399.379	597	598.6
399.763	650.8	652.2
400.168	600.2	593
400.572	596.2	592
400.977	601.2	589.2
401.382	618.8	617.6
401.787	609	604.2
402.192	617.4	611.2
402.597	617	617.8
403.002	592	586.4
403.386	617.8	605.8
403.791	620.2	618.8
404.197	595.4	586.2
404.602	598.2	600.4
405.007	595	593.8
405.413	596	591
405.818	591.4	583.6
406.224	587.6	592.8
406.608	598.2	599.6
407.014	588.4	589
407.42	611.8	616.4
407.825	587.8	587.6
408.231	600.6	610
408.637	604.6	601.4
409.043	611	621.8
409.449	597.8	597.4
409.834	594.2	594.6
410.24	601.4	592.6
410.646	605.4	613
411.052	614.8	607.6
411.458	605.2	604.4
411.865	612.6	604.6
412.271	610.2	611
412.677	605.6	596.4
413.062	598.6	607.8
413.469	593.8	596
413.875	634.4	628.8
414.282	613.8	610.8
414.689	602.6	605.4
415.095	606.2	600.8
415.502	594.6	595.6
415.888	607.8	598.4
416.294	582.8	591.8
416.701	634.2	636.8
417.108	596.4	596
417.515	611	614
417.923	593.6	599.8
418.33	621.8	613.6
418.715	610.4	601
419.123	585.4	599
419.53	594	595
419.937	600.8	602.8
420.345	610.8	615
420.752	600	595.8
421.16	610.6	622.2
421.546	597.4	596.2
421.953	603.4	602.6
422.361	590.4	601
422.769	595.8	600
423.177	581.2	590.2
423.585	619.6	616.4
423.992	617.8	623.2
424.379	615	612.8
424.787	605.8	607.2
425.195	622.2	616.4
425.603	592.8	604.4
426.011	611.2	618.8
426.419	616	625.6
426.806	606	608.4
427.214	604	601.2
427.623	610.6	607.4
428.031	614.4	613.8
428.44	600.8	610.2
428.848	610.2	619
429.235	619.2	615.8
429.644	600	606.4
430.053	602	607.4
430.461	620.8	619.8
430.87	634.6	634
431.279	614.8	610.2
431.666	595.4	598.4
432.075	601.8	601
432.484	602.6	608.8
432.893	589.6	602
433.302	614.4	609.2
433.711	610.2	613
434.099	606.2	602.6
434.508	596.4	592.2
434.918	600.2	581.2
435.327	613.6	606.4
435.737	607.6	604.4
436.125	599.8	604.8
436.534	601.4	605
436.944	601.4	606.8
437.353	599.8	606
437.763	623.8	618
438.173	584.6	588.6
438.561	604.4	616.4
438.971	584.6	587.4
439.381	596.2	599.4
439.791	617	595.4
440.201	590.2	578
440.589	602.2	602.8
440.999	607	603.6
441.409	603.6	599.2
441.819	589.8	587.4
442.23	609.4	603.8
442.619	607.6	599.4
443.029	607	603
443.439	607.2	601.8
443.85	605.8	603.2
444.26	615.4	610.4
444.649	606.2	614
445.06	593.6	592.8
445.471	595.8	594.4
445.881	600.2	597
446.292	609.2	612.4
446.682	619	622
447.092	590.8	594.2
447.503	644.8	654.2
447.914	594	600.2
448.325	597.4	593.6
448.715	599.6	590
449.126	594.2	595
449.537	601	599.8
449.948	607.2	602.2
450.338	592.8	598
450.75	608.4	612.8
451.161	600	602.8
451.572	600.2	607.4
451.984	595	587.4
452.374	577.6	582.8
452.786	591.4	595.6
453.197	600.8	606
453.609	608	611.2
453.999	585.2	580.6
454.411	590.2	587.8
454.823	605.8	607.6
455.235	602.4	595.6
455.647	598	593
456.037	606.6	601.2
456.449	582.2	582.6
456.862	591	603.4
457.274	595	589.8
457.665	590.4	593
458.077	609.8	598.4
458.489	610.8	609
458.902	595	595
459.293	595	598
459.705	596	591.6
460.118	592	590.8
460.53	598.6	596.4
460.921	595.4	596.4
461.334	600.4	605.4
461.747	597.2	595.2
462.16	608.4	603.2
462.551	609	601
462.964	604	605.6
463.377	579.6	589.8
463.79	599.8	598.8
464.182	605	611.6
464.595	589.4	590.4
465.008	591.6	594.6
465.421	600.4	594.6
465.813	590.4	590.8
466.226	610	604
466.64	592.8	593
467.053	637.2	640
467.445	597.4	602.4
467.859	606.6	594.2
468.272	594.2	602.4
468.686	608.8	601.8
469.078	595	594
469.492	577.4	584.4
469.906	604.4	597.6
470.298	603.8	601.2
470.712	594.4	589.8
471.126	593.4	586.6
471.54	582.6	583
471.933	586.6	580.2
472.347	593.4	592.8
472.761	590.2	597.6
473.175	590.4	585.8
473.568	590.4	592.4
473.982	586.2	584.2
474.397	586.2	590
474.79	596.6	599.8
475.204	596.2	591
475.619	585.8	583
476.033	594	591.4
476.426	590.2	585.8
476.841	581.6	580.8
477.256	616.6	611.4
477.649	588	574.8
478.064	587.6	574.2
478.479	585.2	579.8
478.872	584.2	584.4
479.287	571.6	572.6
479.702	580.6	582.8
480.118	588.2	588.4
480.511	588	588
480.927	580.8	583.4
481.342	589	582.4
481.736	597.2	595.6
482.151	584.8	588.4
482.566	597.2	596
482.96	586	591.6
483.376	593.2	600.8
483.792	589	586.8
484.186	591.8	591.6
484.602	589.4	584.2
485.017	593.4	599.6
485.412	588	592.4
485.827	593.4	594.8
486.243	592.8	586.4
486.638	611	614.4
487.054	598	609.6
487.47	602.2	601.8
487.865	588	590.2
488.281	579	588
488.697	584.4	584.6
489.092	584.2	586
489.508	586	585.2
489.925	596.4	603.4
490.32	584	579.4
490.736	592.6	589.6
491.153	597.8	588.6
491.548	590.4	598.2
491.964	608.6	600.2
492.381	576.8	586.6
492.776	598.4	593.6
493.193	590.8	575.8
493.61	599.8	601.6
494.006	589.2	595
494.422	594.6	589.2
494.84	584.6	585.4
495.235	597.2	593.8
495.652	584.4	591.2
496.069	591.8	597.8
496.465	573.4	581.4
496.883	588.2	584.2
497.3	612.2	610.2
497.696	577	587.2
498.113	594	593.2
498.509	579.8	575.6
498.927	580.8	583
499.344	583.6	584
499.741	582.2	581.8
500.158	593.8	591.2
500.576	601	594.8
500.973	594.4	586.8
501.39	582.2	577.8
501.787	581.8	572.8
502.205	591.2	589.8
502.623	585.6	575.2
503.02	577.8	571.8
503.438	583.2	584.2
503.856	588.6	587.8
504.253	594.6	587.6
504.671	594.4	594.8
505.068	586	581
505.486	591.8	587
505.905	609.4	598.4
506.302	597.4	582.6
506.72	601	595.6
507.118	586	582.8
507.536	591.2	593.4
507.955	587.6	584.2
508.352	584.4	589.4
508.771	593.6	592
509.169	598.2	594.2
509.587	587.4	573.6
510.006	592.6	589.4
510.404	584	572
510.823	588	579.4
511.221	588	583.2
511.64	586.4	579
512.038	596.6	607.2
512.457	590	594.8
512.877	581.2	591.4
513.275	582.4	583.8
513.694	587.4	588.2
514.092	583.4	580.6
514.512	597.6	593.4
514.91	590.8	591.4
515.33	582.6	595.4
515.749	584.6	584.8
516.148	587.4	589.2
516.568	592	593
516.966	590.2	587
517.386	582.8	588.6
517.785	592.2	584.4
518.205	580	591
518.603	586.6	590.4
519.024	583.2	581
519.444	593	587.8
519.843	602.2	591.2
520.263	587	588.6
520.662	592.8	594.6
521.082	582	583
521.481	593.6	588.2
521.902	585.4	591
522.301	587.8	585.8
522.722	591.8	591.8
523.121	580	590.2
523.542	581.4	584.4
523.963	585	584.4
524.362	574.4	596.8
524.783	578.8	589.4
525.183	581	591
525.604	582.6	602.8
526.003	580.4	581.4
526.425	584.8	582.4
526.824	586.2	590.6
527.246	600	592.2
527.646	589.8	595
528.067	586.6	597.8
528.467	579.2	594.4
528.888	585.8	595.8
529.289	581.4	584
529.71	584.6	585.4
530.11	586	584
530.532	586.6	590.2
530.932	581.2	576
531.354	571.2	579.2
531.755	625.6	623
532.176	602	599.6
532.577	590.6	586.8
532.999	581.8	585.2
533.4	590.6	588.6
533.822	598.8	600
534.223	588.4	590.6
534.645	588	597.4
535.046	583.2	583
535.468	578.8	592.2
535.869	596	600
536.292	585.8	579.2
536.693	581	586.4
537.115	589.8	585
537.516	582	573.8
537.939	580.8	581.2
538.34	605.2	606.4
538.742	601.2	597.8
539.165	589.8	588
539.566	591.4	593.4
539.989	586.2	574.2
540.391	579.6	577.6
540.814	595.4	584.8
541.216	592.6	596
541.639	581.6	590
542.041	594.8	588.2
542.464	581.8	586.6
542.866	583.6	586.6
543.268	579.8	571.2
543.691	594.6	589.8
544.093	593.6	591.6
544.517	613.6	608.8
544.919	575.6	573
545.343	609.2	613
545.745	574.6	573.6
546.147	586.6	586.4
546.571	590.2	589
546.974	572.6	572.6
547.398	583.2	588.2
547.8	600	587
548.224	577.6	584
548.627	574.6	583
549.03	587.8	585.2
549.454	581.8	582
549.857	565.2	577
550.281	576.4	577.8
550.684	583.8	589.8
551.087	599.8	600.8
551.512	588.2	584.4
551.915	592.6	593.8
552.34	593.2	583.8
552.743	580	581.8
553.146	591.4	592
553.571	582.4	588
553.975	608.4	605.8
554.399	574.2	579.6
554.803	633.4	633
555.207	573.2	579.2
555.632	585.2	579
556.036	588	590.8
556.461	572.4	580.2
556.865	587.6	580.6
557.268	574.4	573.6
557.694	580.4	590
558.098	595	595.8
558.502	587	586
558.927	583.8	585.8
559.332	583.8	583.2
559.736	579.4	590.2
560.162	589	593.8
560.566	578.4	578.4
560.992	593.6	588
561.396	586.4	586.8
561.801	576.4	584
562.227	584.8	582.2
562.631	586.4	585.8
563.036	585.2	583.2
563.462	596.8	581.4
563.867	581	585.8
564.272	569	578.4
564.698	585.2	587.8
565.103	575.4	573.8
565.508	602.4	604
565.935	572.2	583.8
566.34	581.4	580.4
566.745	597.4	602.2
567.172	585	576.4
567.577	605	597.8
567.982	598	596.6
568.409	586	590.2
568.815	577.4	578.6
569.22	591.8	583.4
569.626	593.4	592.2
570.053	579.4	573.6
570.459	581.6	582
570.865	596	578.8
571.292	592.2	591.8
571.698	582.2	587.2
572.104	576.2	578.6
572.531	581.8	579.8
572.937	600.8	598.4
573.343	587	583.4
573.75	580.2	580.6
574.177	589.6	583.4
574.583	590.4	590.8
574.99	583.4	583.8
575.396	596.8	588
575.824	576.8	581.2
576.231	588.2	586.6
576.637	577	581.8
577.065	609.6	600.6
577.472	579.4	574.4
577.879	584.8	575.8
578.286	595	599.8
578.714	576.4	576
579.121	586.2	585
579.528	586.6	577.6
579.935	591.6	592.2
580.364	578.6	574.2
580.771	562.6	569.6
581.178	582.8	561.4
581.585	588.4	581.6
582.014	590.6	591.2
582.421	581.4	578.6
582.829	572.6	575.8
583.236	597.6	587.4
583.644	574.8	572
584.073	581.4	576.4
584.481	585	579.8
584.889	567.8	577.8
585.296	591.6	590.6
585.726	584.6	587.4
586.134	576.6	585.4
586.542	580.2	578.2
586.95	603.8	588.2
587.358	574.2	575.6
587.787	589.4	584.6
588.196	570.6	565.8
588.604	576	574.8
589.012	576.6	582.2
589.421	575.4	570.4
589.851	568.6	573.4
590.259	588.6	585.6
590.668	583	576.6
591.076	614.6	617.8
591.485	578	574.6
591.894	581.2	589.6
592.324	600	596
592.733	592.8	588.4
593.142	568.6	573.6
593.551	574.2	575.6
593.96	621.2	597.8
594.369	567.4	575
594.8	578	567.4
595.209	577.8	573.4
595.618	571.4	568.8
596.028	576.4	576
596.437	567.6	561.2
596.847	580.2	580.6
597.256	584	581.4
597.687	587.8	583.2
598.097	582	585.6
598.507	572.6	572
598.917	583.2	583.2
599.327	583	584.6
599.736	573.4	586
600.146	588.2	590
600.556	578.2	582
600.988	591.8	593.2
601.398	574.4	588
601.808	582.8	595
602.219	562.8	566.8
602.629	579.8	579.8
603.039	579	585.6
603.45	610.2	611.8
603.86	585	582.6
604.271	595.4	588.8
604.703	588.8	577.4
605.114	578	577.4
605.525	585.2	587.2
605.935	587	583.2
606.346	605	597
606.757	588	586.2
607.168	586	581
607.579	578.6	574.4
607.99	594.8	598.4
608.402	589	584.8
608.813	586	591
609.224	576.4	575.2
609.636	579.2	571.2
610.047	570.2	574.8
610.48	587.2	579.4
610.892	587.8	585.2
611.303	589.6	586.4
611.715	579.6	583
612.127	575.8	570.4
612.539	580.6	576.8
612.95	584.2	585.8
613.362	577.6	575.2
613.774	572.4	571.6
614.186	579.2	568.4
614.599	574.8	578.4
615.011	584.4	593.8
615.423	569.4	574.6
615.835	579.2	568.8
616.248	577.4	570
616.66	579	580.8
617.073	573	570.6
617.485	577.8	572
617.898	588.4	584.8
618.311	578.4	575.4
618.723	578.4	577
619.136	611.6	616
619.549	595	600.8
619.962	599.2	596
620.375	584	579.8
620.788	583.4	584.8
621.201	585.6	572
621.614	590.8	594.6
622.028	578.8	579.2
622.441	590.2	588
622.854	602	597
623.268	578	568.6
623.681	589.6	581
624.095	584.4	585.8
624.509	590.6	594.8
624.922	587.2	589.4
625.336	564.8	570.8
625.728	582.4	577.2
626.142	585	592
626.556	590.8	597.2
626.97	579.2	585
627.384	569	578.4
627.799	570.6	580.6
628.213	585.6	594.4
628.627	566	574.6
629.041	577.6	577.8
629.456	570.8	579
629.87	575.2	589.4
630.285	587.4	597
630.699	578.8	590.2
631.093	576.2	574.8
631.507	583.2	584.8
631.922	579.8	583.4
632.337	586.2	597.4
632.752	568	566.8
633.167	577.6	575
633.582	586.4	568
633.997	576.6	575.6
634.412	572.4	576.6
634.806	576	578.8
635.221	571.4	583.8
635.637	585	587.2
636.052	571.4	570.2
636.468	581	579.8
636.883	598.4	598.8
637.299	577.8	572.4
637.715	563	573.6
638.109	580.2	574.8
638.525	566.2	563
638.941	591.2	593.2
639.357	581	583.2
639.773	584.6	590.6
640.189	576.4	575
640.584	581.4	580.8
641	581	574
641.416	562.4	567
641.832	575	580.4
642.249	578.6	576.6
642.665	578	575
643.06	590.6	578.6
643.477	587.6	593
643.894	562.8	570.4
644.31	579.2	571.6
644.727	578.8	581
645.123	588	570.4
645.54	569.8	574
645.957	583.6	581.4
646.374	583.2	585.4
646.77	585.4	571.8
647.187	616	607
647.604	577.8	584.6
648.021	576.4	558.2
648.439	572.2	573.8
648.835	580.4	580.4
649.252	581.8	576.8
649.67	577	572.6
650.088	579.6	574.2
650.484	577	580.4
650.902	585.2	584
651.32	584.2	591.2
651.738	577.6	578.8
652.134	586.2	580.8
652.552	583.8	603
652.971	592.2	586
653.389	578	574.4
653.786	596.6	593.4
654.204	582.6	587.6
654.622	579.4	572.4
655.019	570.6	575.2
655.438	585	587.8
655.857	579.4	575.4
656.275	590.2	584.8
656.673	580.6	578
657.091	578.2	572.4
657.51	577.2	577.8
657.908	591.2	591.8
658.327	588.4	600.8
658.746	566.8	571.6
659.144	580.6	578.8
659.563	587.6	595.2
659.982	586.4	592
660.38	574	571.4
660.8	578.2	579
661.219	590.6	586.4
661.617	575.2	582.2
662.037	580.6	578.4
662.457	595.4	595.6
662.855	563.8	567
663.275	614.8	610.8
663.695	580.4	586.4
664.094	574.2	579.6
664.514	585	583.6
664.934	571.4	575
665.333	585	585.4
665.753	575	573
666.152	567.2	569
666.572	574.2	580.6
666.993	590.2	591.8
667.392	575.4	577.6
667.812	578.2	576.2
668.212	563.8	573.8
668.632	579.2	584.8
669.053	577.4	575.2
669.453	588.8	583.6
669.874	582.8	579.6
670.273	579.6	582.8
670.694	569.8	571.4
671.116	593.6	586.6
671.515	587.4	595.2
671.937	583.2	582
672.337	572.2	577.4
672.758	575.8	576.8
673.158	588.6	586.8
673.58	570.6	565.6
673.98	577.4	586
674.402	586	585
674.824	582.6	583.8
675.224	576.8	571.2
675.646	570.6	572
676.047	570.8	578.4
676.469	584	573
676.869	583.2	585.2
677.292	585.8	583.2
677.693	570.2	567.4
678.115	576.6	576.8
678.516	575	587.4
678.939	577	586.2
679.34	577.2	579.6
679.762	586.8	600.8
680.164	578	591.2
680.586	572	576
680.988	575	580.6
681.411	598.8	604.2
681.812	575.2	569.4
682.236	566.6	570.2
682.637	569	571
683.061	558.2	562.2
683.462	578.2	568.2
683.864	571.4	572.4
684.288	578	581.8
684.69	569	567.6
685.114	588.2	585.2
685.516	578.8	581.8
685.94	571.4	566.8
686.342	579.6	582.2
686.766	568.4	570
687.168	574.2	567.6
687.571	595.4	593.8
687.995	576.2	580.2
688.398	570.4	567.2
688.822	580	572.8
689.225	607.2	598
689.628	595.8	595.6
690.052	567	570.8
690.456	582.4	585.6
690.88	582	570.8
691.284	561.8	565.6
691.687	578	585.4
692.112	568	576
692.515	570	570.6
692.919	575.6	573.6
693.344	567.4	579.2
693.747	569	584
694.173	565.2	572.2
694.577	586.2	594.8
694.98	576.4	576.2
695.406	582.2	570.8
695.81	576.6	583
696.214	577.8	580.8
696.64	581	580.6
697.044	580.6	579.2
697.448	588	585.2
697.874	574.4	572.4
698.279	574.6	569.6
698.684	570.2	568.6
699.11	575.4	578
699.514	579.6	569.6
699.919	576.8	568.8
700.324	575	570.2
700.75	576.2	574.2
701.156	572	571
701.561	587.8	585.4
701.987	577	573
702.393	571.4	575.6
702.798	584.8	588.6
703.203	576.8	574.8
703.63	577.6	573.4
704.036	574.8	575.4
704.442	582.2	580.4
704.847	564.6	576.4
705.274	581.8	574.8
705.68	579	582
706.086	588.8	581.2
706.492	567.4	565.2
706.92	568.2	571.8
707.326	588.8	581
707.732	569.4	564.6
708.139	573.8	568
708.545	564.8	573.4
708.973	577.6	573
709.38	580.6	571.6
709.786	570.2	560.2
710.193	583	587.2
710.6	579.8	575.4
711.028	569.4	568.6
711.435	572.6	579.8
711.842	576.8	567.4
712.249	572.8	561
712.656	574.8	567.6
713.064	585.2	583.2
713.492	575.4	568.6
713.9	575.6	564.8
714.307	577.2	581.8
714.715	583.6	580.8
715.123	579	578
715.53	580.2	579
715.938	579.4	580.6
716.367	576.6	574.6
716.775	572	573
717.184	573	566.6
717.592	574	574.4
718	584	586.4
718.408	612.4	608.4
718.816	625.6	621
719.225	579.6	575.8
719.633	579.2	579.4
720.042	567	564
720.472	582.4	576.2
720.881	594.2	587.8
721.29	572.2	575.6
721.699	559.6	571.8
722.108	581.8	584
722.517	574	585.4
722.926	574.8	570
723.335	590.4	587.4
723.744	579.6	578.2
724.154	577.6	587
724.563	580	579.6
724.973	577.2	576.4
725.382	576.2	573.2
725.792	568.4	575.6
726.202	566.4	555.2
726.612	580.4	590.2
727.022	571.8	574.6
727.432	579.2	568.6
779.813	572	570.2
780.223	618.6	615.2
780.634	573.8	576.4
781.044	562	561.8
781.454	570.6	575
781.865	589.2	598.6
782.276	562.4	563.8
782.686	580	582.2
783.097	572.2	576.4
783.508	571	576.2
783.919	572.2	580.6
784.33	579.8	578.4
784.741	584.8	593.4
785.152	566.4	570
785.563	554.8	566.2
785.974	573.4	576.2
786.386	586.2	578.8
786.776	567	568
787.188	565.4	572
787.599	563.8	566.4
788.011	570	585.4
788.423	576.8	574.4
788.835	567.2	564.4
789.247	561.6	570.8
789.659	563.4	574.8
790.071	568.4	577.6
790.483	616.8	618.2
790.874	568.4	570.4
791.286	576	586
791.699	570.2	575.8
792.111	568.2	570
792.524	573.2	571.6
792.937	562.2	566.2
793.349	561.6	565
793.741	570.6	569.2
794.154	562.4	560.4
794.567	584.4	589
794.98	565.8	565.4
795.393	557.8	563.2
795.785	584	585.8
796.198	565.2	564.6
796.612	573.2	573.8
797.026	570.6	561.4
797.439	552.6	551.4
797.831	570.4	565.4
798.245	566.4	561.6
798.659	576.8	570.6
799.073	574	567.8
799.487	575.6	572.8
799.88	575.6	580.8
800.294	569.2	568
800.708	574.4	578.6
801.123	583.4	573.2
801.516	589	590.6
801.93	569.2	561
802.345	563.4	567
802.76	575.6	576.8
803.153	580.8	588.6
803.568	586.6	587.8
803.983	588.2	583.6
804.377	579.4	579.6
804.792	563.8	563
805.207	563	561.2
805.601	573.6	578.2
806.016	608.8	608.4
806.432	571.4	572.6
806.826	600	601.6
807.242	582.8	586.4
807.658	570	576.2
808.052	571.8	571.6
808.468	566.8	573.6
808.884	560.6	567.6
809.279	567.4	576.6
809.695	584.6	590.6
810.111	588.4	599.8
810.506	578	572.4
810.922	582.2	589.8
811.339	568.4	568.2
811.734	581.6	570.2
812.151	569	570
812.546	566	568.6
812.963	569.4	572.6
813.38	583.6	577.4
813.776	583	571.8
814.193	590.4	599.8
814.589	570.4	566
815.006	560.6	575.4
815.402	571.2	572.6
815.82	575.4	572.4
816.237	575.2	578.8
816.633	579.2	573.6
817.051	565.8	561.4
817.448	576.2	573.2
817.866	569	564.6
818.262	593	589.4
818.68	568.2	563.6
819.077	562	565.6
819.495	576.8	572.6
819.892	615	623.4
820.311	567.4	562.8
820.708	571.2	563.4
821.127	569.2	570.8
821.524	582.4	589
821.943	583	576.8
822.34	601.4	587
822.759	573.4	575.6
823.157	577.4	570
823.576	589.2	588.6
823.974	580.4	578.2
824.393	579.8	580.2
824.791	569.4	571.8
825.189	572.6	569.4
825.609	567	569.8
826.007	576.2	571.4
826.427	562	563.6
826.826	568.6	570
827.246	584	575.8
827.644	559.2	563.8
828.043	572	586.6
828.463	573.6	570.6
828.862	584.4	584.4
829.261	582.2	575.4
829.682	567.6	569.8
830.081	577.6	586.4
830.502	565.8	562.4
830.901	577	584
831.301	562.6	565.6
831.722	561.4	568.2
832.121	578	567.4
832.521	567.4	577.6
832.943	576.6	582
833.342	572.8	572.6
833.742	558.6	561.6
834.164	571.2	569.4
834.564	565.4	562.2
834.965	572.6	565.2
835.386	570.6	568.2
835.787	561	571.8
836.188	563.6	577
836.588	565.2	570.8
837.01	569.8	571.6
837.411	559	564
837.812	570.4	575.4
838.213	578.8	565.8
838.636	568.4	555.8
839.037	640	633.6
839.438	580.8	567.8
839.84	577.4	571.6
840.263	570.4	575.2
840.664	577.6	574.2
841.066	575.6	567
841.468	564.8	575.8
841.891	567.6	558.6
842.293	585.6	588.2
842.695	575.8	580
843.098	592.4	583
843.5	579.4	567.2
843.902	569.6	576.6
844.326	575	575.8
844.729	571	578.4
845.131	578	587.8
845.534	575.2	571.2
845.937	582.2	585.2
846.34	583.6	588.6
846.764	568.4	567
847.167	573.4	580.2
847.571	556.8	563.6
847.974	572.4	573.4
848.377	565.2	563.2
848.781	615.8	628
849.184	585	578.8
849.588	569.4	564.8
849.992	557	568.8
850.396	572.6	578.8
850.821	588	598.8
851.225	581.2	576.2
851.63	562.6	566.2
852.034	577.8	582
852.438	572.8	567
852.843	651.6	648.4
853.247	571.8	560.6
853.652	567.8	565.4
854.057	592.6	580.4
854.462	566.6	574.2
854.867	570.4	570.8
855.272	604.2	598.4
855.677	569.4	575.4
856.082	567.8	572.2
856.487	554	555.2
856.893	574.8	570.4
857.298	567.4	565.4
857.704	572.4	566.6
858.11	571.6	580.2
858.516	575.2	578.2
858.922	565.2	574.6
859.328	581.8	579.6
859.734	568.8	572.4
860.14	566.6	576.8
860.525	574	573
860.931	563	571.2
861.338	564.4	563.4
861.745	575.8	566.4
862.151	577.2	572.6
862.558	573.6	571
862.965	563.4	566.8
863.372	569.4	554
863.779	561.6	568.4
864.186	591.2	589.6
864.572	579.4	568.6
864.98	584.6	592.6
865.387	595.8	597
865.795	559	564.2
866.203	579	580.8
866.61	562.2	553.4
867.018	583.4	575.4
867.405	574.4	569.4
867.813	570	566
868.221	578.2	575.2
868.63	569.2	570.4
869.038	576.8	580
869.425	607.2	617
869.834	581.6	573.6
870.243	567.4	571.4
870.652	569.6	557.4
871.039	571.2	563.6
871.448	576	571.4
871.857	576	578.2
872.266	577.8	569.8
872.654	575.2	573.2
873.064	568.8	564.4
873.473	581	582.2
873.883	564.4	569.2
874.271	558.2	564.4
874.681	575	587
875.091	564	562.2
875.48	581	577
875.89	586.6	599.2
876.3	566	566.2
876.689	560.4	554.2
877.1	567.8	573.6
877.51	576	580.6
877.9	583.6	591
878.31	567	566.8
878.721	601.4	604
879.111	578	566.4
879.522	572.8	568.2
879.933	561.6	563.6
880.323	560.4	557.4
880.734	564.2	558.2
881.125	569	574.4
881.536	567.8	563.4
881.948	562.2	569.6
882.338	562.8	574.8
882.75	575	574
883.141	562	567.2
883.553	567.4	570.6
883.944	588.6	594.8
884.356	567.4	581.2
884.769	558.2	571.8
885.16	564.8	571.8
885.573	569.2	575.2
885.964	560	570.8
886.377	566.6	571.8
886.768	561	564.4
887.181	567.4	574.8
887.573	559.2	565.6
887.987	578	574.8
888.378	580.4	581.2
888.792	570.8	576.4
889.184	614.8	615.4
889.598	564.2	562.4
889.99	574.6	568.2
890.383	564.2	569
890.797	565.8	561.4
891.19	586.2	579.2
891.604	567.4	570.2
891.997	567.4	572.6
892.411	563.4	565
892.805	563.8	572
893.198	556.4	567.2
893.613	553.8	558.6
894.006	565.4	575.8
894.421	556.6	564.8
894.815	570.2	563.4
895.209	563.8	564.4
895.624	611.4	609.6
896.018	576	585.2
896.412	559.8	564.4
896.828	566.6	561.4
897.222	570.2	571.4
897.617	571.6	571
898.033	588.2	592.2
898.427	560.4	567.6
898.822	571.4	570.6
899.239	567.6	564.6
899.634	556.4	555.2
900.029	586	588.2
900.424	563.8	567.8
900.841	554.2	559.8
901.236	583.2	581.4
901.632	572.2	577.6
902.027	621.4	631.6
902.445	575.2	575
902.841	564.8	568.4
903.237	563	568
903.633	584.4	581.4
904.05	572.8	571.2
904.447	575.4	563.6
904.843	584.4	578.4
905.24	567	566.4
905.636	561.4	556.4
906.033	568.6	570
906.451	580.4	582.2
906.848	570.2	565.6
907.246	571.6	568.8
907.643	565.4	572
908.04	582	574.2
908.438	582.8	575
908.835	587.6	577.8
909.254	573.4	564.4
909.652	572.8	574.2
910.05	568	569.4
910.448	562.4	567.4
910.846	570.4	572
911.244	560.8	559.2
911.643	573.6	571.2
912.041	569.4	574.2
912.44	583	586.4
912.839	563.6	568.4
913.237	570	556.8
913.636	555	558.8
914.035	571	577.6
914.434	560.2	559.8
914.834	582.2	579.6
915.233	576	576.2
915.633	566	570.2
916.032	567.2	566
916.432	571.8	567
916.832	581.8	572.6
917.232	560	564
917.632	561	559.4
918.032	578.6	576.6
918.432	571.6	567.4
918.833	565.8	563.4
919.233	564	568.6
919.634	560.2	562.4
920.035	577.8	577.6
920.436	568	558.4
920.837	568.4	569
921.238	573.6	570.6
921.639	566	569.6
922.019	571.4	572
922.42	570.8	570.2
922.822	578.2	575
923.224	552.8	557.8
923.625	566.6	561.6
924.027	571.6	562.4
924.429	591.4	588.8
924.81	570.6	566.4
925.212	568.8	570.6
925.615	568.2	569.2
926.017	572.8	561.2
926.42	577.6	580
926.801	575.2	564.2
927.204	564.8	560.2
927.607	568.8	573.8
928.01	584.6	583.2
928.413	572.2	568.4
928.795	552	561.4
929.199	560.4	569
929.602	555.6	562.4
930.006	558.8	552
930.388	558	564.6
930.792	570.8	568.2
931.196	566.8	564.8
931.579	602	601.2
931.983	559.6	564.2
932.388	610.6	618.2
932.771	566.4	565.2
933.176	558.6	566
933.58	568.8	570
933.964	578	570
934.369	558.6	563.8
934.774	580.6	577.8
935.158	563.2	562
935.563	559	563.2
935.947	560.4	565
936.353	572.6	569.4
936.759	561.4	560.8
937.143	569.2	563
937.549	567.6	566.6
937.934	576.4	576
938.34	582.2	584.2
938.746	557.4	561.4
939.131	568.8	562.8
939.538	568	557.2
939.923	568.8	576.6
940.33	559.2	557.6
940.716	569.6	565.2
941.123	573	564.4
941.508	567.4	575.2
941.916	585.4	584.4
942.302	572.6	574.2
942.709	560.4	555.4
943.096	559.8	560.6
943.503	579	583.8
943.89	562	567.8
944.298	570.8	554.4
944.685	584.6	594.4
945.072	566.2	567.4
945.48	573.6	573.6
945.867	558.2	562.8
946.276	555.4	564.8
946.663	596.4	585.8
947.051	576.4	589.2
947.46	573.8	575.4
947.848	568	574.8
948.257	556.8	562.4
948.645	560.4	572.4
949.033	564	555.8
949.443	568	558.4
949.831	600.2	613.4
950.22	564.8	559.6
950.63	578.2	575.6
951.018	600	602.8
951.407	557.2	564.8
951.796	554.6	565.4
952.207	575	575.8
952.596	576.4	566.6
952.985	559	558.2
953.375	608	608.2
953.786	565.6	567.6
954.176	552.8	558.2
954.566	575	572.4
954.956	550	562.2
955.367	561.4	561.8
955.758	586.4	585.4
956.148	555.8	553.2
956.539	573.6	581.2
956.929	559.6	568.4
957.341	567.4	555
957.732	562.4	560.6
958.123	570.2	571.2
958.515	558.2	560.2
958.906	576.6	571.8
959.297	566.4	561.8
959.689	568.2	564.4
960.102	567.6	563
960.494	567.8	567.2
960.886	560.6	561.6
961.278	560.4	564.8
961.67	582.8	584.8
962.062	606	599.8
962.455	569.4	561.6
962.847	556	557.6
963.24	563.4	556.2
963.633	569.2	571.8
964.026	555.8	560
964.419	566.4	562.4
964.812	577	565.6
965.206	555	563
965.599	570.6	564.4
965.993	566	566.4
966.386	560.6	560.4
966.78	573	580.8
967.174	578.8	569
967.569	567.8	555.8
967.963	560.8	552.4
968.357	559.6	556
968.752	572.4	554.8
969.146	560.2	559.2
969.541	557.8	553
969.936	563.8	560.2
970.331	569	562
970.705	559.6	557.8
971.1	566.8	567.4
971.496	575.8	574.8
971.892	564.8	558.4
972.287	566.8	565.6
972.683	559.2	560
973.079	560.8	559.2
973.454	581.6	578.4
973.85	567.4	558.8
974.247	577.8	572.4
974.643	591.8	585.4
975.04	570	568.2
975.415	567.2	571.8
975.812	563.6	561.4
976.209	567.6	568.4
976.607	562.2	561.6
976.982	579.6	576.4
977.38	579	577.4
977.778	564.6	569.4
978.175	561.4	563.6
978.552	564.4	563.6
978.95	564	572.6
979.348	575.2	576.8
979.725	602.2	609.2
980.123	564.8	566
980.522	561.8	557.4
980.899	554.2	558
981.298	557	567.4
981.697	563.2	565
982.075	560	568.2
982.474	562.4	561
982.852	561	575.6
983.251	562.2	567.6
983.651	553.6	556.8
984.029	568.2	572.4
984.429	554	566.4
984.808	556.2	558.8
985.208	558	563.2
985.609	552.6	561.8
985.987	551.6	556
986.388	563.2	559
986.768	575.8	576.2
987.168	561.6	560.2
987.548	574	570.6
987.949	581.4	573
988.329	582.4	571
988.731	559.4	545.2
989.111	564.8	567.6
989.491	571.2	553.4
989.893	564	564.4
990.273	571	574
990.676	563.2	554.8
991.057	553	556.2
991.459	558.2	564
991.84	570.2	564.8
992.221	555	554.6
992.624	580.6	589
993.006	566.8	574.2
993.388	568.2	568
993.791	565.6	567.6
994.173	565.6	570.2
994.576	582	584.2
994.959	559.8	556.8
995.341	555	560.8
995.724	562.4	562
996.128	560.4	560
996.511	561.6	576
996.894	558	562.8
997.298	562	560.2
997.681	572	564.2
998.065	572.2	565.6
998.448	565.6	555.8
998.854	574.2	577.8
999.237	555	554.4
999.621	572.4	565.2
1000.01	582.2	581.6
1000.39	563	569
1000.8	563.8	561
1001.18	568	567.4
1001.56	565.8	575.2
1001.95	567.8	567.6
1002.33	570.2	567.2
1002.72	566	559.4
1003.13	562.4	561.4
1003.51	570.6	566.8
1003.9	569.6	564.2
1004.28	586.8	575
1004.67	563.4	560.4
1005.06	564.8	564
1005.44	596.8	605.2
1005.83	551.8	546.6
1006.21	570.6	564.6
1006.6	560.8	561.6
1006.99	576.4	569.2
1007.37	567.4	574.2
1007.76	563.2	575
1060.12	558.2	555.6
1060.51	559.4	550
1060.89	578	575.6
1061.28	578.2	567.4
1061.67	573.4	570.2
1062.06	573.2	573.4
1062.45	562	565.8
1062.83	558.4	565.2
1063.22	577.6	575.2
1063.61	611	604
1064	570.6	579.4
1064.39	562.2	563
1064.78	558.8	557.6
1065.14	575.2	575
1065.53	578.4	562.4
1065.92	562	562.8
1066.31	564	552.4
1066.7	565.8	571
1067.09	579.8	575.8
1067.46	578.8	570.2
1067.85	557.8	564
1068.24	563.4	564.8
1068.63	570.6	574.8
1069.02	564	560.8
1069.39	569.2	569.4
1069.78	565.6	559.8
1070.17	558	566
1070.57	555.6	553.2
1070.93	570.6	566.4
1071.33	558.2	562.8
1071.72	562.2	562.8
1072.11	558.6	561.2
1072.48	563	557
1072.87	568	570.2
1073.26	572.8	569
1073.64	558.8	567.8
1074.03	557.4	550.6
1074.4	561.6	564.2
1074.79	559.4	551.8
1075.19	566.6	571.4
1075.56	565.2	569.6
1075.95	562.6	562.2
1076.34	560.8	566.4
1076.72	563.6	558.4
1077.11	567.6	571.8
1077.48	581.2	578.8
1077.88	565.2	564.4
1078.25	567.4	572.8
1078.64	575	578.6
1079.02	567.4	564
1079.41	572.8	577.4
1079.78	559.2	566.4
1080.18	562.4	558.2
1080.55	634.4	629
1080.95	563.6	557.2
1081.32	554.6	553.2
1081.72	570.8	573.6
1082.09	572.2	565.8
1082.49	553.6	555.4
1082.86	555.8	562.8
1083.24	553.6	555.2
1083.63	551.4	550.6
1084.01	553.4	568.4
1084.38	560.8	567.2
1084.78	553.4	556
1085.16	560	562.2
1085.55	577	571
1085.93	583.4	571.6
1086.31	562.4	547.8
1086.7	592.8	584.2
1087.08	565.6	547.6
1087.46	562	564.4
1087.83	547.4	547.8
1088.23	569.4	559
1088.61	564.4	560
1088.99	569.4	573.8
1089.36	560.4	555.6
1089.76	555	568
1090.14	566	561.8
1090.52	563	556
1090.9	562.2	557.6
1091.27	568.8	568.6
1091.67	586.4	593.4
1092.05	566	567.4
1092.43	554.4	552
1092.81	568.2	566.6
1093.19	574	567.4
1093.57	566	558.4
1093.95	564.4	553.2
1094.35	568.2	564.8
1094.73	564.6	570.8
1095.11	547.6	566.2
1095.49	553	561.4
1095.87	561.8	562.2
1096.25	575	584
1096.63	572.8	572
1097.01	562.8	568.2
1097.39	565.8	565
1097.77	564.2	565.2
1098.15	560	571.8
1098.53	563	554.4
1098.91	555.8	560
1099.29	564.2	569.2
1099.68	577.2	577.6
1100.06	563.2	571.8
1100.44	563.4	563.8
1100.82	563.4	560.6
1101.18	582.6	569.2
1101.56	556.6	559.2
1101.95	557.6	553.6
1102.33	560	553.6
1102.71	563	566.8
1103.1	553.2	557.6
1103.48	553.6	551.6
1103.86	550	562.8
1104.22	566.8	561.8
1104.61	562.8	557
1104.99	554.4	563.6
1105.38	548.8	555
1105.76	561	563.8
1106.12	566.2	563
1106.51	595	592.4
1106.89	564.4	564.2
1107.26	565.2	567
1107.64	572.6	568.2
1108.03	551.8	563.8
1108.41	562	560.6
1108.78	563.8	558
1109.16	563.4	564.8
1109.55	571.4	566.6
1109.91	551.4	546.2
1110.3	547.2	548.6
1110.69	573.6	570
1111.05	557.4	556.6
1111.44	564	551.4
1111.8	564.4	571.2
1112.19	570.4	568.6
1112.58	567.4	559.2
1112.94	556.8	554
1113.33	556.4	553.4
1113.7	554	551.8
1114.09	569.6	551.4
1114.45	554.8	551.6
1114.84	559	552
1115.21	570.2	564.2
1115.6	549	555.4
1115.96	561.4	573.6
1116.35	567.6	572.2
1116.72	561.6	554
1117.11	567.2	570.4
1117.48	556.4	559.2
1117.85	563.6	559.4
1118.24	575.2	576.4
1118.6	563.8	566
1118.99	559	561.8
1119.36	567.2	558.6
1119.73	570.2	553.2
1120.12	563.8	565
1120.49	552.4	559.6
1120.86	564.4	572
1121.25	558.2	563.6
1121.62	553.6	548.2
1121.99	551.8	557.2
1122.38	574.6	573.6
1122.76	558.8	559.2
1123.13	551.4	559
1123.5	568.8	564
1123.89	571.2	570.8
1124.26	546.6	561.2
1124.63	564.2	561.4
1125	571	560.4
1125.4	551.4	553
1125.77	558.4	554.4
1126.14	544.2	545.8
1126.51	560.8	565
1126.88	564.6	562.8
1127.26	552.8	554.4
1127.63	544.2	546.2
1128.02	559.2	554.2
1128.4	556.8	557.6
1128.77	554.6	559.2
1129.14	567.6	557.4
1129.52	560.6	570
1129.89	558.6	567
1130.26	555	554.6
1130.64	544.4	555.4
1131.01	549.6	551.2
